Folder: PrplFrame/results/custom_parametric

Note: README.md
# PrplFrame
A machine learning framework developed for performing model training and parametric studies on numerical datasets.

Tutorial can be checked out [here](https://colab.research.google.com/drive/14nEaTI2ng_70Ydo6ea1xd1Wcrg-IigGo?usp=sharing)

Classification tutorial can also be checked out [here](https://colab.research.google.com/drive/1QWqaFi5gYq7F9sXzTLbhj-f0SfYTc-Y2?usp=sharing)

File: custom_parametric_data.csv
,Cement (component 1)(kg in a m^3 mixture),Blast Furnace Slag (component 2)(kg in a m^3 mixture),Fly Ash (component 3)(kg in a m^3 mixture),Water  (component 4)(kg in a m^3 mixture),Superplasticizer (component 5)(kg in a m^3 mixture),Coarse Aggregate  (component 6)(kg in a m^3 mixture),Fine Aggregate (component 7)(kg in a m^3 mixture),Age (day),"Concrete compressive strength(MPa, megapascals) "
0,0,9,281.166,181.566,6.20311,972.919,773.579,45.6621,22.079
1,0,10,281.166,181.566,6.20311,972.919,773.579,45.6621,22.079
2,0,11,281.166,181.566,6.20311,972.919,773.579,45.6621,22.079
3,1,9,281.166,181.566,6.20311,972.919,773.579,45.6621,22.079
4,1,10,281.166,181.566,6.20311,972.919,773.579,45.6621,22.079
5,1,11,281.166,181.566,6.20311,972.919,773.579,45.6621,22.079
6,2,9,281.166,181.566,6.20311,972.919,773.579,45.6621,22.079
7,2,10,281.166,181.566,6.20311,972.919,773.579,45.6621,22.079
8,2,11,281.166,181.566,6.20311,972.919,773.579,45.6621,22.079
9,3,9,281.166,181.566,6.20311,972.919,773.579,45.6621,22.079
10,3,10,281.166,181.566,6.20311,972.919,773.579,45.6621,22.079
11,3,11,281.166,181.566,6.20311,972.919,773.579,45.6621,22.079
12,4,9,281.166,181.566,6.20311,972.919,773.579,45.6621,22.079
13,4,10,281.166,181.566,6.20311,972.919,773.579,45.6621,22.079
14,4,11,281.166,181.566,6.20311,972.919,773.579,45.6621,22.079
15,5,9,281.166,181.566,6.20311,972.919,773.579,45.6621,22.079
16,5,10,281.166,181.566,6.20311,972.919,773.579,45.6621,22.079
17,5,11,281.166,181.566,6.20311,972.919,773.579,45.6621,22.079
18,6,9,281.166,181.566,6.20311,972.919,773.579,45.6621,22.079
19,6,10,281.166,181.566,6.20311,972.919,773.579,45.6621,22.079
20,6,11,281.166,181.566,6.20311,972.919,773.579,45.6621,22.079
21,7,9,281.166,181.566,6.20311,972.919,773.579,45.6621,22.079
22,7,10,281.166,181.566,6.20311,972.919,773.579,45.6621,22.079
23,7,11,281.166,181.566,6.20311,972.919,773.579,45.6621,22.079
24,8,9,281.166,181.566,6.20311,972.919,773.579,45.6621,22.079
25,8,10,281.166,181.566,6.20311,972.919,773.579,45.6621,22.079
26,8,11,281.166,181.566,6.20311,972.919,773.579,45.6621,22.079
27,9,9,281.166,181.566,6.20311,972.919,773.579,45.6621,22.079
28,9,10,281.166,181.566,6.20311,972.919,773.579,45.6621,22.079
29,9,11,281.166,181.566,6.20311,972.919,773.579,45.6621,22.079